# E (eV)  dos(E)    pdos(E)
  -3.973  0.150E+01  0.147E+01
  -3.873  0.246E+01  0.238E+01
  -3.773  0.365E+01  0.354E+01
  -3.673  0.299E+01  0.293E+01
  -3.573  0.350E+01  0.345E+01
  -3.473  0.429E+01  0.422E+01
  -3.373  0.243E+01  0.240E+01
  -3.273  0.231E+01  0.231E+01
  -3.173  0.301E+01  0.299E+01
  -3.073  0.366E+01  0.362E+01
  -2.973  0.111E+01  0.108E+01
  -2.873  0.181E+01  0.173E+01
  -2.773  0.389E+01  0.380E+01
  -2.673  0.414E+01  0.409E+01
  -2.573  0.511E+01  0.506E+01
  -2.473  0.195E+01  0.193E+01
  -2.373  0.800E+00  0.781E+00
  -2.273  0.121E+01  0.118E+01
  -2.173  0.394E+00  0.386E+00
  -2.073  0.874E+00  0.870E+00
  -1.973  0.111E+01  0.111E+01
  -1.873  0.586E+00  0.584E+00
  -1.773  0.840E+00  0.834E+00
  -1.673  0.173E+01  0.170E+01
  -1.573  0.260E+01  0.256E+01
  -1.473  0.186E+01  0.183E+01
  -1.373  0.762E+00  0.754E+00
  -1.273  0.188E+00  0.187E+00
  -1.173  0.797E+00  0.792E+00
  -1.073  0.113E+01  0.112E+01
  -0.973  0.290E+00  0.288E+00
  -0.873  0.883E+00  0.875E+00
  -0.773  0.371E+01  0.368E+01
  -0.673  0.597E+01  0.592E+01
  -0.573  0.653E+01  0.647E+01
  -0.473  0.657E+01  0.652E+01
  -0.373  0.544E+01  0.539E+01
  -0.273  0.165E+01  0.163E+01
  -0.173  0.561E+00  0.557E+00
  -0.073  0.177E+01  0.176E+01
   0.027  0.336E+01  0.334E+01
   0.127  0.426E+01  0.422E+01
   0.227  0.122E+01  0.121E+01
   0.327  0.976E-01  0.967E-01
   0.427  0.638E+00  0.631E+00
   0.527  0.138E+01  0.136E+01
   0.627  0.167E+01  0.164E+01
   0.727  0.220E+01  0.216E+01
   0.827  0.294E+01  0.288E+01
   0.927  0.288E+01  0.281E+01
   1.027  0.118E+01  0.115E+01
   1.127  0.412E+00  0.396E+00
   1.227  0.172E+00  0.165E+00
   1.327  0.211E+00  0.204E+00
   1.427  0.110E+01  0.107E+01
   1.527  0.933E+00  0.895E+00
   1.627  0.152E+01  0.140E+01
   1.727  0.333E+01  0.307E+01
   1.827  0.313E+01  0.271E+01
   1.927  0.314E+01  0.277E+01
   2.027  0.220E+01  0.210E+01
   2.127  0.459E+01  0.437E+01
   2.227  0.597E+01  0.564E+01
   2.327  0.422E+01  0.404E+01
   2.427  0.483E+01  0.467E+01
   2.527  0.613E+01  0.594E+01
   2.627  0.292E+01  0.294E+01
   2.727  0.163E+01  0.173E+01
   2.827  0.217E+01  0.217E+01
   2.927  0.605E+01  0.591E+01
   3.027  0.740E+01  0.711E+01
   3.127  0.464E+01  0.442E+01
   3.227  0.373E+01  0.364E+01
   3.327  0.601E+01  0.593E+01
   3.427  0.660E+01  0.646E+01
   3.527  0.609E+01  0.591E+01
   3.627  0.503E+01  0.491E+01
   3.727  0.653E+01  0.637E+01
   3.827  0.491E+01  0.484E+01
   3.927  0.372E+01  0.366E+01
   4.027  0.568E+01  0.559E+01
   4.127  0.695E+01  0.689E+01
   4.227  0.506E+01  0.501E+01
   4.327  0.366E+01  0.359E+01
   4.427  0.552E+01  0.540E+01
   4.527  0.636E+01  0.627E+01
   4.627  0.280E+01  0.277E+01
   4.727  0.257E+01  0.250E+01
   4.827  0.641E+01  0.631E+01
   4.927  0.592E+01  0.580E+01
   5.027  0.284E+01  0.277E+01
   5.127  0.200E+01  0.197E+01
   5.227  0.228E+01  0.225E+01
   5.327  0.147E+01  0.143E+01
   5.427  0.247E+01  0.245E+01
   5.527  0.242E+01  0.240E+01
   5.627  0.142E+01  0.136E+01
   5.727  0.159E+01  0.145E+01
   5.827  0.519E+00  0.472E+00
   5.927  0.148E+00  0.134E+00
   6.027  0.599E+00  0.541E+00
   6.127  0.499E+00  0.451E+00
   6.227  0.150E+00  0.136E+00
   6.327  0.151E-01  0.137E-01
   6.427  0.250E-03  0.227E-03
   6.527  0.573E-06  0.520E-06
